Folder: Serpentine-Database/Antigorite

Note: README.md
# Serpentine-Database
XRD Serpentine Database for comparison with 4D-STEM data

File: powderpattern_table_1.csv
H	K	L	2THETA	D-VALUE	MULT	INTENSITY
3	0	0	6.10	14.4978	2	1.2
5	1	0	13.97	6.3372	2	5.6
3	-1	1	16.79	5.2817	2	2.9
1	-2	0	19.30	4.5996	2	0.0
5	2	0	21.76	4.0840	2	0.0
2	-2	1	23.21	3.8317	2	1.9
12	0	0	24.56	3.6245	2	0.3
4	0	2	26.05	3.4201	2	3.9
7	-2	-1	26.83	3.3225	2	0.2
5	1	-2	28.12	3.1732	2	0.9
9	-2	-1	29.24	3.0541	2	0.1
14	1	0	30.35	2.9450	2	0.4
0	2	2	31.32	2.8559	2	3.2
2	2	2	31.67	2.8250	2	2.5
15	1	0	32.36	2.7668	2	0.2
13	2	0	33.04	2.7109	2	0.1
11	0	2	33.90	2.6440	2	0.7
7	-3	-1	34.63	2.5905	2	33.5
13	2	1	35.56	2.5242	2	0.1
12	-1	2	36.75	2.4457	2	0.6
10	2	-2	37.35	2.4074	2	0.1
0	3	-2	38.29	2.3503	2	0.2
1	1	3	38.55	2.3354	2	0.1
3	3	2	38.91	2.3146	2	0.2
11	-2	2	39.25	2.2955	2	0.0
14	-1	2	39.83	2.2631	2	0.2
5	4	0	40.35	2.2351	2	0.0
7	1	-3	40.88	2.2074	2	1.2
7	-3	2	41.27	2.1875	2	4.5
4	4	-1	41.76	2.1627	2	0.0
16	-1	-2	42.21	2.1407	2	0.0
17	2	1	42.49	2.1274	2	8.8
14	3	-1	42.97	2.1049	2	0.0
14	2	2	43.43	2.0838	2	0.1
10	3	2	44.07	2.0549	2	0.2
16	3	0	44.43	2.0391	2	0.1
7	-2	3	45.00	2.0145	2	0.1
18	-1	-2	45.68	1.9858	2	0.0
19	2	1	46.23	1.9638	2	0.2
12	1	3	46.65	1.9471	2	0.2
22	-1	0	47.00	1.9333	2	0.2
20	-2	-1	47.62	1.9096	2	0.0
2	-3	-3	47.88	1.8997	2	0.2
12	-4	-1	48.18	1.8888	2	0.1
4	3	3	48.70	1.8696	2	0.1
5	-3	3	49.17	1.8529	2	0.1
15	1	-3	49.48	1.8419	2	0.0
12	2	3	49.85	1.8294	2	0.0
15	3	2	50.34	1.8126	2	0.1
15	1	3	50.65	1.8022	2	0.0
19	3	-1	51.03	1.7897	2	0.0
14	-2	-3	51.27	1.7819	2	0.0
19	3	1	51.51	1.7740	2	0.1
16	-3	2	51.80	1.7649	2	0.1
5	-5	1	52.14	1.7540	2	0.3
17	1	-3	52.38	1.7468	2	0.0
8	0	-4	52.80	1.7339	2	0.1
7	5	1	53.26	1.7200	2	1.6
25	1	0	53.60	1.7098	2	0.7
16	-2	-3	53.91	1.7006	2	5.5
1	-2	-4	54.28	1.6899	2	1.1
8	1	4	54.57	1.6815	2	0.2
18	3	2	54.90	1.6723	2	0.1
5	-2	-4	55.14	1.6655	2	0.0
14	4	-2	55.30	1.6612	2	0.7
5	2	4	55.63	1.6522	2	0.1
14	-4	2	55.97	1.6428	2	0.4
14	3	-3	56.20	1.6366	2	0.2
11	-5	1	56.47	1.6294	2	0.3
18	-4	1	56.73	1.6226	2	1.2
23	-3	0	57.14	1.6120	2	0.3
7	-4	3	57.28	1.6083	2	0.0
7	-5	-2	57.71	1.5975	2	1.4
13	1	-4	58.11	1.5873	2	0.1
19	-4	1	58.32	1.5821	2	0.3
8	5	2	58.69	1.5730	2	3.2
0	3	4	59.05	1.5643	2	0.0
2	-3	4	59.31	1.5581	2	0.1
3	3	4	59.56	1.5520	2	0.4
27	-1	1	59.94	1.5431	2	0.1
2	-6	0	60.16	1.5380	2	0.0
11	-4	3	60.45	1.5313	2	0.0
16	0	-4	60.69	1.5259	2	4.2
24	2	2	61.05	1.5178	2	0.0
18	3	-3	61.45	1.5088	2	0.2
13	-4	-3	61.61	1.5053	2	0.1
3	6	1	61.88	1.4994	2	0.2
12	-5	2	62.10	1.4947	2	0.1
13	4	3	62.49	1.4863	2	0.1
9	3	4	62.80	1.4797	2	34.8
25	2	2	63.07	1.4739	2	0.0
9	-6	0	63.31	1.4689	2	0.0
3	-5	-3	63.53	1.4645	2	0.1
4	5	-3	63.77	1.4594	2	0.1
8	6	1	64.16	1.4515	2	0.1
12	-3	-4	64.40	1.4468	2	0.2
20	4	2	64.57	1.4432	2	0.1
28	-2	1	64.88	1.4370	2	0.0
2	1	-5	65.06	1.4337	2	0.0
1	4	-4	65.34	1.4280	2	2.2
1	-4	4	65.43	1.4263	2	1.9
10	6	1	65.61	1.4229	2	0.1
3	4	4	65.84	1.4186	2	1.0
16	4	3	66.06	1.4142	2	0.0
21	-4	2	66.22	1.4113	2	0.0
11	-6	1	66.45	1.4069	2	0.0
16	-5	2	66.66	1.4031	2	0.0
10	-5	-3	66.90	1.3985	2	0.7
24	4	1	67.10	1.3949	2	0.0
12	-6	1	67.36	1.3901	2	0.2
7	-6	-2	67.57	1.3862	2	0.1
31	0	-1	67.73	1.3835	2	0.7
20	-5	1	67.95	1.3795	2	0.0
29	0	2	68.20	1.3750	2	0.4
24	2	3	68.46	1.3705	2	0.0
23	4	-2	68.70	1.3662	2	0.1
9	4	4	68.90	1.3627	2	0.0
11	1	-5	69.14	1.3586	2	0.0
23	-3	-3	69.41	1.3540	2	2.0
8	2	-5	69.66	1.3497	2	0.0
32	1	0	69.96	1.3447	2	0.0
9	2	-5	70.26	1.3397	2	0.0
14	5	-3	70.49	1.3359	2	0.0
19	5	2	70.78	1.3311	2	0.0
18	-3	-4	71.14	1.3252	2	0.1
13	4	-4	71.34	1.3220	2	0.0
20	-5	-2	71.44	1.3204	2	0.0
3	7	0	71.71	1.3161	2	0.0
4	7	0	71.98	1.3119	2	0.0
4	-3	-5	72.25	1.3076	2	0.3
33	-1	0	72.43	1.3048	2	0.0
17	6	-1	72.61	1.3020	2	12.5
18	-6	0	72.76	1.2998	2	0.5
6	-3	-5	72.90	1.2975	2	1.5
0	5	-4	73.02	1.2958	2	0.0
4	-6	-3	73.19	1.2931	2	0.0
15	-4	-4	73.37	1.2903	2	0.0
6	-3	5	73.53	1.2881	2	13.7
12	2	5	73.74	1.2848	2	0.4
23	-1	4	73.91	1.2822	2	0.4
33	1	1	74.12	1.2792	2	0.0
7	-6	-3	74.34	1.2760	2	0.1
23	2	-4	74.50	1.2737	2	0.0
25	0	-4	74.70	1.2707	2	0.1
25	5	0	74.92	1.2674	2	0.1
18	-5	-3	75.19	1.2637	2	0.0
9	3	5	75.36	1.2612	2	15.7
9	-7	-1	75.66	1.2569	2	0.2
9	7	1	75.85	1.2543	2	2.8
29	1	3	76.13	1.2503	2	0.0
9	5	4	76.41	1.2464	2	0.3
33	2	1	76.59	1.2440	2	2.7
10	6	3	76.76	1.2417	2	0.1
2	7	2	76.93	1.2393	2	0.0
11	7	-1	77.13	1.2367	2	0.1
27	-4	2	77.28	1.2346	2	0.0
32	3	-1	77.61	1.2302	2	0.0
18	6	-2	77.73	1.2285	2	1.7
20	-5	-3	77.94	1.2258	2	0.0
6	-7	2	78.19	1.2224	2	0.1
18	4	4	78.40	1.2197	2	0.2
35	1	-1	78.47	1.2189	2	0.0
31	-1	-3	78.72	1.2155	2	0.0
13	7	-1	78.87	1.2136	2	0.1
20	-1	-5	79.13	1.2103	2	0.0
30	4	1	79.36	1.2073	2	0.0
14	6	-3	79.56	1.2049	2	0.0
19	4	4	79.80	1.2018	2	0.1
0	1	-6	79.95	1.2000	2	0.0
9	4	-5	80.15	1.1975	2	0.1
20	0	5	80.34	1.1950	2	0.6
16	3	-5	80.54	1.1927	2	0.2
25	-5	2	80.72	1.1904	2	3.3
35	2	-1	80.89	1.1883	2	0.2
9	4	5	81.05	1.1864	2	0.0
22	0	-5	81.29	1.1835	2	0.2
20	2	-5	81.55	1.1803	2	0.6
8	-1	-6	81.80	1.1774	2	0.2
0	6	4	81.99	1.1751	2	0.6
16	-3	5	82.14	1.1734	2	0.1
16	-7	1	82.34	1.1711	2	0.0
29	0	-4	82.47	1.1695	2	2.4
22	4	-4	82.63	1.1677	2	0.0
21	-6	2	82.79	1.1658	2	0.1
30	3	-3	82.98	1.1637	2	0.1
13	-7	2	83.19	1.1613	2	0.1
1	7	3	83.37	1.1592	2	0.0
22	-6	-2	83.49	1.1578	2	0.1
24	6	1	83.60	1.1565	2	0.0
2	8	0	83.76	1.1547	2	0.0
35	3	0	83.95	1.1526	2	0.0
10	1	6	84.19	1.1500	2	0.2
5	-7	3	84.36	1.1481	2	0.0
18	-7	-1	84.46	1.1469	2	0.0
33	4	0	84.63	1.1451	2	0.0
7	7	-3	84.87	1.1425	2	0.1
1	5	5	84.97	1.1414	2	0.0
31	3	-3	85.16	1.1394	2	0.0
7	-7	3	85.29	1.1380	2	0.8
7	8	0	85.39	1.1369	2	0.0
29	-1	4	85.59	1.1347	2	0.0
33	2	-3	85.73	1.1332	2	0.5
28	2	4	85.89	1.1316	2	0.0
10	6	4	86.01	1.1302	2	0.0
28	-4	3	86.12	1.1291	2	0.0
2	3	-6	86.39	1.1263	2	0.4
19	-6	3	86.54	1.1247	2	0.5
26	-6	-1	86.72	1.1228	2	0.0
13	1	6	86.86	1.1214	2	0.0
19	5	4	87.01	1.1198	2	0.0
10	-7	3	87.22	1.1177	2	0.1
32	-3	-3	87.40	1.1158	2	0.0
20	7	1	87.59	1.1139	2	0.0
24	2	-5	87.72	1.1126	2	0.1
38	2	0	87.87	1.1111	2	0.0
32	4	2	88.10	1.1087	2	0.1
9	-5	5	88.25	1.1072	2	0.0
22	3	-5	88.49	1.1049	2	0.1
10	8	1	88.62	1.1036	2	0.0
12	8	0	88.82	1.1017	2	0.0
13	-7	-3	89.02	1.0997	2	0.0
39	1	-1	89.16	1.0983	2	0.0
26	-4	-4	89.41	1.0959	2	0.0
35	-4	0	89.54	1.0947	2	0.0
27	5	-3	89.66	1.0934	2	0.0
9	-3	6	89.82	1.0920	2	0.6
31	1	4	89.99	1.0903	2	0.0
12	8	1	90.23	1.0881	2	0.0
33	-4	2	90.46	1.0858	2	0.3
16	2	-6	90.65	1.0841	2	0.7
14	-7	3	90.79	1.0827	2	0.0
37	-2	2	91.07	1.0802	2	0.0
27	5	3	91.27	1.0783	2	0.1
32	0	4	91.51	1.0762	2	0.2
33	-3	3	91.68	1.0746	2	0.0
38	3	0	91.85	1.0730	2	0.1
29	3	4	91.96	1.0720	2	0.5
2	-4	6	92.20	1.0699	2	0.2
39	-2	1	92.32	1.0688	2	0.0
5	4	-6	92.54	1.0668	2	0.4
14	-5	5	92.64	1.0659	2	0.0
3	7	4	92.81	1.0645	2	0.0
24	-6	-3	93.00	1.0628	2	0.0
5	4	6	93.14	1.0616	2	0.3
7	-4	-6	93.28	1.0603	2	0.2
5	-7	4	93.46	1.0587	2	0.2
2	6	-5	93.69	1.0567	2	4.4
3	-6	-5	93.82	1.0556	2	2.2
35	4	-2	94.01	1.0540	2	0.0
19	1	6	94.13	1.0529	2	0.0
16	8	1	94.30	1.0515	2	0.9
18	7	-3	94.45	1.0502	2	0.0
33	-1	4	94.69	1.0482	2	0.0
32	4	3	94.88	1.0466	2	0.2
7	-6	-5	95.07	1.0451	2	0.1
36	2	3	95.25	1.0435	2	0.0
15	-3	6	95.37	1.0425	2	0.2
37	1	3	95.52	1.0413	2	0.0
9	7	4	95.64	1.0403	2	0.7
7	-6	5	95.76	1.0393	2	0.1
2	0	-7	96.01	1.0373	2	2.2
29	-6	-2	96.23	1.0355	2	0.2
8	-6	5	96.36	1.0345	2	0.1
16	3	6	96.55	1.0329	2	0.1
29	0	5	96.73	1.0315	2	1.4
35	1	-4	96.89	1.0302	2	0.0
21	-2	-6	97.03	1.0291	2	0.2
4	1	-7	97.11	1.0284	2	0.0
5	0	7	97.26	1.0272	2	0.4
29	6	2	97.39	1.0262	2	0.1
26	-7	1	97.60	1.0245	2	0.5
10	-6	5	97.76	1.0233	2	0.0
37	2	3	97.92	1.0220	2	0.0
5	-1	7	98.07	1.0209	2	0.1
12	6	-5	98.26	1.0195	2	0.7
38	2	-3	98.39	1.0184	2	0.0
6	1	7	98.54	1.0173	2	0.0
32	3	4	98.70	1.0161	2	0.1
8	0	7	98.89	1.0146	2	0.0
28	3	-5	99.03	1.0136	2	0.5
2	5	-6	99.16	1.0126	2	0.0
1	5	6	99.23	1.0120	2	0.0
2	-5	6	99.40	1.0108	2	0.0
4	-2	-7	99.52	1.0099	2	0.0
23	0	6	99.66	1.0088	2	0.0
3	-2	7	99.76	1.0081	2	0.0
15	-7	-4	99.92	1.0070	2	0.0
14	7	4	100.03	1.0062	2	0.0