Folder: Serpentine-Database/Cronstedtite/Crons_1

Note: README.md
# Serpentine-Database
XRD Serpentine Database for comparison with 4D-STEM data

File: powderpattern_table_1.csv
H	K	L	2THETA	D-VALUE	MULT	INTENSITY
0	0	1	12.47	7.0995	2	1000.0
1	-1	0	19.08	4.6505	2	52.0
1	-1	-1	20.42	4.3500	2	45.3
0	2	1	22.47	3.9561	2	34.4
1	-1	1	25.08	3.5509	2	25.1
0	0	2	25.09	3.5497	2	550.0
1	-1	-2	28.09	3.1760	2	17.9
0	2	2	31.43	2.8465	2	11.4
1	-3	0	32.83	2.7283	2	190.0
2	0	0	33.64	2.6641	2	1.4
1	3	-1	33.65	2.6636	2	1.4
1	1	2	34.99	2.5644	2	7.8
1	3	1	36.77	2.4440	2	238.8
0	4	0	37.76	2.3822	2	0.0
2	2	-1	38.00	2.3681	2	0.1
2	-2	0	38.72	2.3253	2	0.4
1	1	-3	38.74	2.3243	2	6.0
2	0	1	38.97	2.3112	2	92.2
1	-3	-2	38.97	2.3110	2	92.2
0	4	1	39.92	2.2585	2	1.0
2	2	-2	41.52	2.1750	2	1.5
0	2	3	42.66	2.1194	2	4.9
2	2	1	43.52	2.0795	2	1.7
1	-3	2	44.39	2.0405	2	107.7
0	4	2	45.87	1.9781	2	2.1
1	-1	3	46.72	1.9444	2	3.0
2	0	2	47.52	1.9132	2	27.7
1	-3	-3	47.53	1.9132	2	27.7
2	2	-3	48.52	1.8761	2	2.6
3	-1	-1	50.68	1.8014	2	3.6
2	4	-1	50.88	1.7946	2	3.1
1	5	0	50.88	1.7944	2	2.9
1	-1	-4	50.90	1.7939	2	1.5
2	4	0	51.46	1.7758	2	2.7
1	5	-1	51.46	1.7757	2	2.5
2	2	2	51.47	1.7754	2	2.7
3	1	-2	52.40	1.7461	2	2.5
3	-1	0	52.40	1.7460	2	3.1
2	-4	-2	53.72	1.7061	2	4.1
1	-5	1	53.73	1.7059	2	1.7
2	0	-4	54.48	1.6843	2	80.5
1	3	3	54.49	1.6841	2	81.0
0	4	3	54.67	1.6789	2	2.2
0	2	-4	55.23	1.6632	2	0.8
2	4	1	55.39	1.6588	2	0.9
1	-5	-2	55.39	1.6587	2	3.9
3	1	-3	57.36	1.6064	2	0.6
3	-1	1	57.36	1.6063	2	2.9
3	3	-1	58.06	1.5885	2	102.9
2	2	-4	58.08	1.5880	2	1.7
2	0	3	58.27	1.5834	2	60.3
1	-3	-4	58.27	1.5834	2	60.4
3	3	-2	59.64	1.5502	2	22.3
3	3	0	59.64	1.5502	2	22.8
2	4	-3	59.65	1.5499	2	2.2
0	6	1	59.66	1.5498	2	22.4
1	5	2	59.66	1.5497	2	0.6
1	-1	4	59.68	1.5493	2	1.1
2	-2	3	61.73	1.5026	2	2.0
2	4	2	62.23	1.4917	2	0.7
1	-5	-3	62.24	1.4917	2	2.1
3	3	-3	64.23	1.4500	2	23.1
3	3	1	64.24	1.4499	2	23.0
0	6	2	64.25	1.4497	2	23.1
1	-1	-5	64.27	1.4493	2	1.1
3	1	-4	65.07	1.4334	2	0.6
3	-1	2	65.08	1.4333	2	2.1
0	4	4	65.59	1.4233	2	2.3
2	0	-5	66.41	1.4078	2	9.3
1	3	4	66.42	1.4076	2	9.4
2	4	-4	68.19	1.3753	2	1.6
1	5	3	68.19	1.3751	2	0.3
2	6	-1	68.34	1.3726	2	22.9
4	0	-2	68.80	1.3645	2	1.9
2	6	0	68.82	1.3641	2	1.9
0	2	5	69.02	1.3607	2	0.6
2	-2	-5	69.64	1.3501	2	2.2
2	6	-2	70.74	1.3318	2	30.1
1	3	-5	70.77	1.3313	2	41.4
2	0	4	70.77	1.3313	2	41.5
3	5	-1	71.36	1.3216	2	1.8
4	2	-1	71.51	1.3193	2	1.5
3	-3	-4	71.53	1.3190	2	8.9
1	7	0	71.54	1.3189	2	2.0
3	-3	2	71.54	1.3189	2	9.1
0	6	3	71.55	1.3187	2	8.9
2	4	3	71.55	1.3187	2	0.2
1	-5	-4	71.55	1.3187	2	1.0
4	-2	-2	71.99	1.3118	2	1.8
1	-7	-1	72.01	1.3114	2	1.5
2	-6	1	72.17	1.3089	2	16.9
3	-5	-2	72.78	1.2993	2	1.2
3	-5	0	72.79	1.2993	2	1.7
4	-2	0	73.87	1.2829	2	0.8
1	7	1	73.89	1.2825	2	2.0
2	-2	4	73.92	1.2822	2	1.7
1	1	5	73.93	1.2820	2	0.2
3	1	-5	75.14	1.2643	2	0.1
3	-1	3	75.15	1.2642	2	1.0
4	-2	-3	75.27	1.2625	2	2.1
1	-7	-2	75.29	1.2621	2	0.6
4	0	1	75.90	1.2536	2	15.1
2	-6	-3	75.91	1.2534	2	15.1
3	5	-3	76.98	1.2386	2	0.5
3	5	1	76.99	1.2386	2	1.9
2	-6	2	78.23	1.2220	2	3.1
0	4	-5	78.40	1.2197	2	1.3
4	2	1	78.97	1.2123	2	0.4
1	-7	2	78.99	1.2121	2	1.6
2	4	-5	79.00	1.2120	2	1.2
1	-5	4	79.01	1.2119	2	0.2
1	1	-6	79.02	1.2117	2	0.2
2	0	-6	80.08	1.1983	2	6.5
1	3	5	80.09	1.1982	2	6.5
4	-4	-1	80.79	1.1895	2	0.3
4	-4	-2	81.25	1.1840	2	0.3
4	2	-4	81.25	1.1840	2	1.5
3	3	-5	81.27	1.1837	2	1.8
1	7	-3	81.28	1.1837	2	0.3
3	3	3	81.28	1.1836	2	1.7
0	6	-4	81.29	1.1835	2	1.8
0	0	6	81.31	1.1832	2	10.9
0	8	1	82.03	1.1747	2	0.2
4	4	0	83.07	1.1626	2	0.2
1	-5	-5	83.11	1.1622	2	0.9
2	-4	4	83.11	1.1622	2	0.2
2	-2	-6	83.11	1.1621	2	0.9
2	6	-4	83.70	1.1555	2	22.5
3	5	-4	83.84	1.1539	2	0.2
3	-5	2	83.84	1.1539	2	1.5
0	2	6	84.34	1.1484	2	0.3
4	-4	-3	84.42	1.1474	2	0.2
1	3	-6	85.08	1.1402	2	6.1
2	0	5	85.08	1.1402	2	6.1
0	8	-2	86.11	1.1292	2	0.2
4	2	2	86.70	1.1231	2	0.1
1	7	3	86.71	1.1229	2	1.3
2	-6	3	86.86	1.1213	2	18.2
3	1	-6	87.46	1.1152	2	0.2
3	-1	4	87.47	1.1151	2	0.5
4	-4	1	88.04	1.1094	2	0.3
2	2	5	88.09	1.1089	2	1.0
3	-7	-1	89.69	1.0932	2	0.2
5	-1	-2	89.82	1.0920	2	0.2
4	2	-5	89.84	1.0917	2	0.8
2	-8	-1	89.85	1.0917	2	0.2
1	7	-4	89.87	1.0915	2	0.0
1	1	6	89.90	1.0912	2	0.3
5	1	-1	90.27	1.0877	2	0.3
4	-4	-4	90.29	1.0875	2	0.4
2	-8	0	90.30	1.0874	2	0.1
3	-7	-2	91.04	1.0804	2	0.4
3	-7	0	91.04	1.0804	2	0.1
5	1	-3	92.07	1.0711	2	0.3
2	-8	-2	92.10	1.0708	2	0.4
2	4	-6	92.13	1.0705	2	0.3
1	-5	5	92.14	1.0704	2	0.1
0	8	-3	92.87	1.0639	2	0.5
3	-5	-5	93.31	1.0601	2	0.0
3	-5	3	93.32	1.0600	2	0.7
0	4	-6	93.35	1.0597	2	1.2
5	-1	0	93.43	1.0590	2	0.3
2	-8	1	93.45	1.0588	2	0.2
3	-3	-6	93.47	1.0587	2	12.3
3	-3	4	93.48	1.0586	2	12.4
0	6	-5	93.48	1.0585	2	12.3
4	0	3	94.06	1.0535	2	2.2
2	-6	-5	94.07	1.0535	2	2.2
3	7	-3	95.10	1.0448	2	0.3
3	7	1	95.10	1.0447	2	0.2
4	4	2	95.71	1.0397	2	0.4
1	-1	-7	95.76	1.0393	2	0.2
5	3	-2	95.83	1.0388	2	6.8
4	6	-1	95.84	1.0386	2	6.8
1	9	0	95.86	1.0385	2	6.8
1	-3	6	95.91	1.0381	2	6.4
5	-3	-1	96.28	1.0351	2	1.4
4	-6	-2	96.29	1.0350	2	1.4
1	9	-1	96.32	1.0348	2	1.4
5	-1	-4	97.04	1.0290	2	0.1
2	-8	-3	97.07	1.0287	2	0.4
4	2	3	97.08	1.0287	2	0.0
1	-7	4	97.09	1.0286	2	1.0
1	-5	-6	97.11	1.0285	2	0.2
2	-4	5	97.11	1.0285	2	0.2
5	-3	-3	98.09	1.0207	2	15.3
4	-6	0	98.11	1.0206	2	15.4
4	0	-6	98.13	1.0205	2	14.1
1	-9	1	98.13	1.0204	2	15.3
2	6	4	98.15	1.0203	2	14.3
4	4	-5	98.88	1.0147	2	0.2
2	-2	-7	98.93	1.0144	2	1.2
5	1	1	99.32	1.0114	2	0.5
2	-8	2	99.35	1.0112	2	0.2
5	-3	0	99.47	1.0103	2	5.9
4	-6	-3	99.48	1.0102	2	6.0
1	9	-2	99.50	1.0101	2	5.9
1	-9	-2	99.50	1.0101	2	5.9