Folder: Serpentine-Database/Chrysotile/Chryso_3

Note: Chrysotile/Chryso_3/Chrysotile_C12_m1_3.txt
*data for   ICSD # 36225 - File created with release 2021.2
Copyright   (C)2022 by FIZ Karlsruhe - Leibniz Institute for Information 
            Infrastructure. All rights reserved.
Coll Code   36225
Rec  Date   1986/08/08
Mod  Date   2016/02/01
Chem Name   Hexamagnesium closo-undecaoxodisilicate hexahydroxide hydrate
Structured  (O H)6 Mg6 Si4 O11 (H2 O)
Sum         H8 Mg6 O18 Si4
ANX         A2B3X9
Min Name    Chrysotile
Min Group   Serpentine
Min Origin  Thedford Mines, Canada
D(calc)     2.55
Formula Wt  554.2500
Title       The crystal structure of chrysotile H4 Mg3 Si2 O9
Author(s)   Warren, B.E.; Bragg, W.L.
Reference   Zeitschrift fuer Kristallographie
            (1931), 76, 201-210
DOI         
Unit Cell   14.66 18.5 5.33 90. 93.27 90.
Vol         1443.20
Z           4
Space Group C 1 2/m 1
SG          C12/M1
SG Number   12
Cryst Sys   monoclinic
Laue Class  2/m
Pearson     mS144
Wyckoff     j11 i4 g e
Symmetry      1            -x, y, -z              
              2            -x, -y, -z             
              3            x, -y, z               
              4            x, y, z                
              5            -x+1/2, y+1/2, -z      
              6            -x+1/2, -y+1/2, -z     
              7            x+1/2, -y+1/2, z       
              8            x+1/2, y+1/2, z        
Red Cell    C  5.330000 11.802178 11.802178 103.211107 92.030232 92.030232 
            721.60
Comments    hk0 data only, z-coordinates not determined
            Model with amphibole-like double chains, not correct
            Superseded by ICSD109355 with halved b
            d[Mg2-O6] = 1.03A dev. -51% (tol.40%) from expected d=2.09A
            d[O4-O9] = 1.48A dev. -41% (tol.40%) from expected d=2.50A
            d[O2-Si2] = 0.86A dev. -49% (tol.40%) from expected d=1.70A
            [TC74] Coordinates in the paper are obviously wrong.
Atom  #   OX   SITE      x           y           z           SOF      H        
 Si   1  +4    8  j  0.13        0.08        0              1.0        0      
 Si   2  +4    8  j  0.13        0.17        0              1.0        0      
 Mg   1  +2    4  g  0           0.25        0              1.0        0      
 Mg   2  +2    8  j  0.18        0.33        0              1.0        0      
 Mg   3  +2    8  j  0.18        0.42        0              1.0        0      
 Mg   4  +2    4  i  0.18        0.5         0              1.0        0      
 O    1  -2    4  i  0.1         0           0              1.0        0      
 O    2  -2    8  j  0.1         0.13        0              1.0        0      
 O    3  -2    8  j  0.1         0.13        0.5            1.0        0      
 O    4  -2    8  j  0.1         0.25        0              1.0        0      
 O    5  -2    8  j  0.25        0.08        0              1.0        0      
 O    6  -2    8  j  0.25        0.17        0              1.0        0      
 O    7  -2    4  e  0.25        0.25        0              1.         H2     
 O    8  -2

Note: README.md
# Serpentine-Database
XRD Serpentine Database for comparison with 4D-STEM data

File: powderpattern_table_3.csv
H	K	L	2THETA	D-VALUE	MULT	INTENSITY
1	-1	0	7.70	11.4783	2	5.1
2	2	0	15.44	5.7392	2	8.4
1	-1	-1	18.06	4.9123	2	1.8
0	4	0	19.19	4.6250	2	11.7
2	2	-1	22.27	3.9922	2	3.1
2	-4	0	22.74	3.9096	2	1.1
2	2	1	23.30	3.8179	2	2.7
1	-5	0	24.82	3.5872	2	2.3
3	-1	1	25.92	3.4372	2	2.5
3	-3	-1	28.11	3.1745	2	0.1
0	6	0	28.96	3.0833	2	0.1
1	-5	1	30.24	2.9553	2	0.1
4	-2	-1	30.42	2.9382	2	0.7
4	4	0	31.17	2.8696	2	7.8
0	6	1	33.59	2.6678	2	0.0
1	1	-2	34.25	2.6178	2	0.1
5	-1	-1	34.46	2.6027	2	3.1
1	1	2	34.96	2.5668	2	0.1
3	-5	1	35.31	2.5419	2	0.2
2	-6	1	36.16	2.4837	2	0.8
2	2	-2	36.58	2.4562	2	0.8
1	-3	-2	36.99	2.4304	2	0.8
3	1	-2	37.89	2.3742	2	0.4
6	2	0	38.15	2.3587	2	0.0
1	-7	1	38.69	2.3274	2	0.0
5	3	1	38.80	2.3209	2	0.1
5	5	0	39.24	2.2957	2	0.2
3	-3	-2	40.42	2.2317	2	0.2
2	-8	0	40.93	2.2050	2	2.6
6	0	1	41.60	2.1711	2	0.4
4	-2	-2	41.98	2.1521	2	0.2
3	-7	-1	42.00	2.1511	2	0.1
4	-6	1	42.50	2.1269	2	0.3
0	8	1	42.63	2.1209	2	1.4
4	0	2	43.16	2.0958	2	7.5
2	8	-1	44.19	2.0496	2	1.2
6	4	-1	44.51	2.0356	2	0.3
5	1	-2	44.98	2.0152	2	3.5
3	-5	-2	45.11	2.0099	2	0.2
7	1	-1	45.98	1.9736	2	1.5
2	-6	-2	46.22	1.9640	2	0.3
3	-5	2	46.77	1.9422	2	0.2
2	-6	2	47.32	1.9210	2	0.3
1	-9	-1	47.71	1.9063	2	0.0
7	-1	1	47.90	1.8992	2	1.3
7	-3	-1	48.16	1.8895	2	0.6
5	-7	-1	48.86	1.8638	2	0.0
1	7	2	49.24	1.8505	2	0.2
6	6	-1	49.93	1.8265	2	0.0
7	5	0	50.11	1.8203	2	0.0
6	-2	-2	50.26	1.8154	2	0.0
3	-9	-1	50.80	1.7972	2	0.0
5	5	-2	51.39	1.7779	2	0.1
0	0	3	51.52	1.7738	2	32.6
8	0	-1	51.91	1.7613	2	2.7
0	10	1	52.36	1.7474	2	0.0
0	2	-3	52.53	1.7420	2	0.0
8	2	-1	52.92	1.7302	2	0.3
6	-4	-2	53.30	1.7188	2	0.0
2	8	-2	53.52	1.7123	2	1.0
2	0	3	53.87	1.7018	2	1.6
8	0	1	53.91	1.7006	2	2.3
3	-1	-3	54.23	1.6913	2	0.3
1	-3	3	54.54	1.6826	2	0.0
6	8	0	54.69	1.6782	2	0.7
1	11	0	54.95	1.6708	2	0.4
8	-4	-1	55.86	1.6460	2	0.0
6	4	2	56.23	1.6360	2	0.0
7	-3	-2	56.40	1.6313	2	0.2
1	-9	-2	56.72	1.6229	2	0.0
6	-8	-1	56.88	1.6189	2	0.1
5	-7	-2	57.27	1.6085	2	0.2
4	8	-2	57.66	1.5988	2	0.1
8	4	1	57.76	1.5961	2	0.0
3	11	0	58.00	1.5900	2	0.4
6	-6	-2	58.11	1.5873	2	0.0
3	-3	3	58.31	1.5825	2	0.0
9	-1	-1	58.61	1.5749	2	0.6
4	10	1	59.00	1.5655	2	0.1
4	8	2	59.53	1.5529	2	0.1
8	0	-2	59.68	1.5493	2	2.0
3	5	-3	59.92	1.5436	2	0.0
4	-2	3	60.09	1.5398	2	0.1
0	6	3	60.18	1.5375	2	0.0
8	6	-1	60.54	1.5294	2	0.2
9	1	1	60.70	1.5258	2	0.5
2	-6	-3	60.96	1.5199	2	0.1
5	3	-3	61.42	1.5095	2	0.0
2	-6	3	62.32	1.4899	2	0.1
9	5	0	62.37	1.4888	2	0.0
4	4	3	62.81	1.4795	2	0.2
6	0	-3	63.01	1.4752	2	0.0
8	4	-2	63.30	1.4691	2	0.0
7	9	0	63.46	1.4658	2	0.4
6	-2	-3	63.90	1.4568	2	0.0
8	-2	2	64.20	1.4507	2	0.2
6	8	-2	64.47	1.4453	2	0.3
4	-6	-3	64.58	1.4432	2	0.1
8	-8	0	65.00	1.4348	2	0.0
3	-7	-3	65.30	1.4288	2	0.0
4	12	0	65.72	1.4207	2	0.4
5	11	-1	65.93	1.4167	2	0.5
9	5	1	66.04	1.4147	2	0.0
6	-4	-3	66.53	1.4054	2	0.0
8	8	-1	66.76	1.4012	2	0.0
6	0	3	66.97	1.3972	2	0.0
6	8	2	67.10	1.3950	2	0.3
3	7	3	67.27	1.3918	2	0.0
9	-3	-2	67.50	1.3877	2	0.2
8	6	-2	67.68	1.3844	2	0.1
3	11	-2	68.14	1.3762	2	0.2
2	-8	3	68.45	1.3706	2	0.2
7	7	2	68.55	1.3689	2	0.1
3	13	0	68.71	1.3661	2	0.1
9	7	-1	69.26	1.3565	2	0.0
1	-9	-3	70.09	1.3426	2	0.0
4	-8	-3	70.60	1.3340	2	0.3
10	-4	1	70.72	1.3321	2	0.2
0	0	4	70.83	1.3303	2	11.6
1	-1	-4	70.95	1.3283	2	0.0
9	-7	1	71.17	1.3248	2	0.0
9	-3	2	71.33	1.3222	2	0.1
0	2	4	71.67	1.3168	2	0.0
7	1	3	71.92	1.3128	2	0.3
3	9	-3	72.14	1.3093	2	0.0
7	9	-2	72.34	1.3061	2	0.3
7	5	-3	72.54	1.3031	2	0.0
10	-2	-2	72.65	1.3014	2	0.0
3	1	-4	72.79	1.2992	2	0.0
8	2	-3	72.84	1.2984	2	0.1
5	-7	3	73.31	1.2913	2	0.0
8	-8	-2	73.58	1.2872	2	0.0
7	11	-1	73.85	1.2832	2	0.3
0	10	3	74.04	1.2803	2	0.0
0	4	4	74.17	1.2785	2	0.1
6	12	-1	74.42	1.2748	2	0.0
6	6	3	74.57	1.2726	2	0.0
6	10	2	74.68	1.2709	2	0.0
10	6	1	74.89	1.2680	2	0.0
5	11	2	75.18	1.2637	2	0.1
7	11	1	75.30	1.2620	2	0.3
2	14	1	75.42	1.2603	2	0.1
1	5	-4	75.94	1.2530	2	0.0
2	10	3	75.98	1.2525	2	0.1
2	-4	4	76.31	1.2479	2	0.0
6	-8	-3	76.61	1.2437	2	0.0
1	-5	4	76.76	1.2417	2	0.0
7	5	3	76.88	1.2400	2	0.0
3	3	4	76.92	1.2395	2	0.0
5	1	-4	77.23	1.2353	2	0.5
7	-7	-3	77.48	1.2319	2	0.0
3	-5	-4	77.73	1.2286	2	0.0
9	9	1	77.78	1.2279	2	0.0
0	6	-4	78.27	1.2215	2	0.0
10	-8	-1	78.56	1.2176	2	0.1
4	14	-1	78.72	1.2155	2	0.0
1	11	3	78.97	1.2123	2	0.0
10	6	-2	79.22	1.2092	2	0.0
8	6	-3	79.40	1.2068	2	0.1
11	5	1	79.59	1.2044	2	0.0
1	15	-1	80.05	1.1987	2	0.0
8	4	3	80.23	1.1965	2	0.0
11	3	-2	80.34	1.1951	2	0.1
12	2	-1	80.44	1.1938	2	0.0
10	-8	1	80.59	1.1920	2	0.1
8	10	-2	80.93	1.1878	2	0.1
6	12	-2	81.19	1.1847	2	0.1
1	-7	4	81.62	1.1795	2	0.0
7	-7	3	81.74	1.1781	2	0.0
12	0	1	82.06	1.1744	2	0.2
11	-7	-1	82.20	1.1726	2	0.1
9	-9	-2	82.37	1.1707	2	0.0
12	4	-1	82.86	1.1651	2	0.2
5	-3	4	82.90	1.1646	2	0.1
0	12	-3	82.98	1.1636	2	5.0
11	-1	2	83.17	1.1615	2	0.7
7	11	2	83.36	1.1593	2	0.3
7	13	-1	83.60	1.1566	2	0.2
0	8	-4	83.91	1.1531	2	0.0
7	9	-3	83.94	1.1528	2	0.1
8	-6	3	84.24	1.1494	2	0.1
11	-7	1	84.41	1.1475	2	0.1
11	-3	2	84.77	1.1436	2	0.1
5	13	2	84.89	1.1423	2	0.1
3	7	4	84.99	1.1412	2	0.0
8	8	-3	85.03	1.1408	2	0.0
4	14	-2	85.61	1.1345	2	0.1
7	3	-4	85.75	1.1330	2	0.0
9	9	2	85.98	1.1305	2	0.0
0	16	-1	86.04	1.1299	2	0.1
10	-4	-3	86.33	1.1269	2	0.1
12	6	-1	86.85	1.1214	2	0.0
2	16	-1	87.12	1.1187	2	0.0
1	9	-4	87.22	1.1177	2	0.0
6	-6	-4	87.40	1.1159	2	0.0
2	16	1	87.52	1.1146	2	0.0
9	5	3	87.77	1.1121	2	0.0
1	13	-3	87.99	1.1098	2	0.0
6	4	4	88.21	1.1077	2	0.0
8	0	-4	88.34	1.1064	2	0.4
11	9	-1	88.60	1.1038	2	0.3
12	4	-2	88.89	1.1009	2	0.1
10	0	3	89.13	1.0986	2	0.1
4	12	3	89.29	1.0971	2	0.3
11	1	-3	89.72	1.0929	2	0.8
8	-8	3	89.82	1.0919	2	0.0
10	6	-3	90.31	1.0873	2	0.0
12	0	2	90.50	1.0855	2	0.2
4	16	-1	90.74	1.0833	2	0.0
0	10	-4	91.08	1.0801	2	0.0
12	-2	2	91.29	1.0781	2	0.0
3	-9	4	91.36	1.0775	2	0.0
8	-4	-4	91.52	1.0760	2	0.0
7	11	-3	91.91	1.0725	2	0.2
9	13	0	92.08	1.0709	2	0.1
10	4	3	92.32	1.0688	2	0.1
9	7	3	92.54	1.0668	2	0.0
0	0	5	92.83	1.0643	2	3.7
12	6	-2	92.87	1.0639	2	0.0
1	17	1	93.03	1.0625	2	0.0
2	10	4	93.15	1.0614	2	0.0
0	14	-3	93.35	1.0597	2	0.0
9	-1	-4	93.54	1.0580	2	0.2
13	1	-2	93.66	1.0570	2	0.0
7	-7	-4	93.72	1.0565	2	0.0
9	11	2	93.95	1.0545	2	0.0
3	-1	-5	94.40	1.0507	2	0.0
11	-5	-3	94.50	1.0498	2	0.0
4	10	-4	94.58	1.0492	2	0.0
12	-8	1	94.82	1.0471	2	0.1
2	0	5	95.10	1.0447	2	0.2
3	17	-1	95.18	1.0441	2	0.0
13	-3	-2	95.25	1.0435	2	0.0
8	-6	-4	95.51	1.0414	2	0.0
14	2	0	95.82	1.0388	2	0.0
2	-2	5	95.90	1.0381	2	0.0
10	10	2	96.02	1.0372	2	0.0
7	11	3	96.11	1.0365	2	0.1
2	4	-5	96.30	1.0349	2	0.0
11	-1	3	96.32	1.0348	2	0.7
4	2	-5	96.73	1.0314	2	0.0
8	10	3	97.00	1.0293	2	0.0
13	-7	-1	97.31	1.0269	2	0.0
3	1	5	97.41	1.0261	2	0.0
12	-6	2	97.68	1.0239	2	0.0
11	3	3	97.92	1.0220	2	0.1
5	17	0	98.18	1.0200	2	0.0
9	5	-4	98.35	1.0188	2	0.0
12	-8	-2	98.47	1.0178	2	0.1
1	-5	5	98.65	1.0164	2	0.0
13	1	2	98.88	1.0147	2	0.0
10	0	-4	99.02	1.0136	2	0.2
1	15	-3	99.18	1.0125	2	0.0
14	4	-1	99.25	1.0120	2	0.0
3	11	4	99.36	1.0111	2	0.0
14	-2	1	99.66	1.0089	2	0.0
10	-2	-4	99.83	1.0076	2	0.0
13	7	1	99.93	1.0068	2	0.0
0	6	-5	100.04	1.0060	2	0.0