Folder: Serpentine-Database/Chrysotile/Chryso_1

Note: Chrysotile/Chryso_1/Chrysotile_A1m1_1.txt
*data for   ICSD # 109355 - File created with release 2021.2
Copyright   (C)2022 by FIZ Karlsruhe - Leibniz Institute for Information 
            Infrastructure. All rights reserved.
Coll Code   109355
Rec  Date   2007/04/01
Mod  Date   2008/02/01
Chem Name   Hexamagnesium closo-undecaoxodisilicate hexahydroxide hydrate
Structured  Mg6 (Si4 O11) (O H)6 (H2 O)
Sum         H8 Mg6 O18 Si4
ANX         A2B3X9
Min Name    Chrysotile
Min Group   Serpentine
Min Origin  Thedford Mines, Canada
D(calc)     2.56
Formula Wt  554.2500
Title       The crystal structure of chrysotile. II. Clino-chrysotile
Author(s)   Whittaker, E.J.W.
Reference   Acta Crystallographica
            (1956), 9, 855-862
DOI         10.1107/S0365110X5600245X
Unit Cell   14.65(1) 9.2 5.34(1) 90. 93.27(2) 90.
Vol         718.55
Z           2
Space Group A 1 m 1
SG          A1M1
SG Number   8
Cryst Sys   monoclinic
Laue Class  2/m
Pearson     mS72
Wyckoff     b10 a8
Symmetry      1            x, -y, z               
              2            x, y, z                
              3            x, -y+1/2, z+1/2       
              4            x, y+1/2, z+1/2        
Red Cell    A  5.318731 5.318731 14.650000 91.640873 91.640873 119.735260 359.28
Comments    Cylindrical, c parallel to axis, b tangential to cylinder, radius of the fibres 
            about 84 A
            [TC74] Coordinates in the paper are obviously wrong.
Atom  #   OX   SITE      x           y           z           SOF      H        
 Si   1  +4    4  b  0.033       0.167       0.006          1.0        0      
 Mg   1  +2    2  a  0.227       0           0.873          1.0        0      
 Mg   2  +2    4  b  0.227       0.167       0.373          1.0        0      
 O    1  -2    2  a  -.013       0           0              1.0        0      
 O    2  -2    4  b  0           0.25        0.25           1.0        0      
 O    3  -2    4  b  0.150       0.167       0.023          1.0        0      
 O    4  -2    2  a  0.150       0.0         0.523          1.         H2     
 O    5  -2    2  a  0.292       0           0.217          1.         H1     
 O    6  -2    4  b  0.292       0.167       0.717          1.         H1     
 Si   2  +4    4  b  0.533       0.167       0.025          1.0        0      
 Mg   3  +2    2  a  0.727       0           0.892          1.0        0      
 Mg   4  +2    4  b  0.727       0.167       0.392          1.0        0      
 O    7  -2    2  a  .487        0           0.019          1.0        0      
 O    8  -2    4  b  0.5         0.25        0.269          1.0        0      
 O    9  -2    4  b  0.650       0.167       0.023          1.0        0      
 O    10 -2    2  a  0.650       0.0         0.542          1.         H2     
 O    11 -2    2  a  0.792       0           0.236          1.         H1     
 O    12 -2    4  b  0.792       0.167       0.736          1.         H1     

Std. Notes  Transformation Method: Tidy
            REMARK Transformed from setting  A 1 m

Note: README.md
# Serpentine-Database
XRD Serpentine Database for comparison with 4D-STEM data

File: powderpattern_table_1.csv
H	K	L	2THETA	D-VALUE	MULT	INTENSITY
0	0	1	6.04	14.6261	2	0.0
1	-1	0	19.24	4.6128	2	138.8
1	-1	-1	19.89	4.4628	2	0.3
0	2	-1	20.24	4.3881	2	0.0
1	1	-2	22.27	3.9914	2	82.8
0	2	-2	22.84	3.8938	2	88.1
0	0	4	24.34	3.6565	2	652.2
0	2	-3	26.64	3.3458	2	0.0
1	1	3	27.26	3.2711	2	0.3
0	0	5	30.56	2.9252	2	0.0
1	1	4	31.97	2.7990	2	22.6
1	3	0	33.72	2.6583	2	11.7
1	-3	-1	34.11	2.6286	2	0.3
1	-3	1	34.46	2.6024	2	0.1
1	1	-5	35.52	2.5274	2	0.1
1	3	-2	35.60	2.5215	2	245.2
0	2	-5	36.40	2.4684	2	0.0
0	0	6	36.87	2.4377	2	40.0
2	0	-3	37.52	2.3971	2	0.3
1	3	3	39.05	2.3065	2	0.1
2	2	0	39.05	2.3064	2	3.2
2	2	-1	39.24	2.2957	2	0.1
0	4	-1	39.67	2.2721	2	0.0
2	-2	-2	40.42	2.2314	2	5.1
1	1	-6	41.01	2.2006	2	7.3
0	4	2	41.14	2.1940	2	4.7
2	-2	2	41.64	2.1691	2	5.0
0	2	6	41.94	2.1539	2	13.2
1	-3	4	42.61	2.1216	2	25.1
1	1	6	42.80	2.1126	2	5.3
0	4	-3	43.51	2.0801	2	0.0
2	2	3	44.26	2.0462	2	0.0
1	3	-5	45.45	1.9958	2	0.1
0	4	-4	46.65	1.9469	2	6.6
1	-3	5	46.83	1.9400	2	0.1
2	0	5	47.43	1.9166	2	0.9
0	2	7	47.81	1.9024	2	0.0
1	-1	7	48.72	1.8689	2	0.0
2	0	-6	49.19	1.8523	2	6.8
1	3	-6	50.04	1.8226	2	104.8
1	-3	6	51.59	1.7717	2	3.3
2	-2	5	51.66	1.7692	2	0.2
3	-1	0	52.44	1.7448	2	6.1
2	-4	0	52.55	1.7414	2	6.0
1	5	0	52.62	1.7393	2	6.1
1	-5	-1	52.89	1.7309	2	0.0
1	-1	-8	52.95	1.7291	2	1.5
2	-4	1	53.20	1.7217	2	0.1
3	1	1	53.21	1.7213	2	0.2
2	-2	-6	53.32	1.7182	2	6.2
2	4	-2	53.65	1.7084	2	5.1
0	2	-8	53.97	1.6990	2	4.8
1	5	2	54.45	1.6851	2	5.2
2	4	2	54.63	1.6800	2	5.3
0	4	-6	54.88	1.6729	2	6.0
3	1	-3	54.88	1.6728	2	0.2
1	-3	-7	55.13	1.6659	2	0.3
2	4	-3	55.36	1.6596	2	0.1
2	-2	6	56.24	1.6355	2	5.7
1	5	3	56.50	1.6286	2	0.0
2	4	3	56.80	1.6209	2	0.1
3	1	3	57.05	1.6144	2	0.2
3	1	-4	57.21	1.6102	2	3.3
2	4	-4	57.79	1.5954	2	4.1
1	5	-4	58.32	1.5821	2	3.0
1	5	4	59.25	1.5595	2	2.8
2	-4	4	59.65	1.5499	2	3.7
0	4	-7	59.80	1.5466	2	0.0
3	-1	4	60.01	1.5415	2	2.3
3	-3	-1	60.20	1.5371	2	1.9
3	-1	-5	60.21	1.5369	2	0.1
0	2	9	60.41	1.5323	2	0.0
0	6	1	60.73	1.5250	2	0.0
2	4	-5	60.89	1.5214	2	0.1
3	-3	-2	60.96	1.5199	2	41.0
2	-2	7	61.32	1.5118	2	0.1
1	5	-5	61.52	1.5074	2	0.0
0	6	2	61.82	1.5007	2	19.4
3	-3	-3	62.43	1.4876	2	0.2
1	3	8	62.46	1.4868	2	69.6
2	-4	5	63.14	1.4724	2	0.1
2	2	-8	63.33	1.4684	2	4.9
3	-1	5	63.60	1.4629	2	0.1
0	0	10	63.62	1.4626	2	16.2
3	-3	3	64.43	1.4461	2	0.4
3	3	-4	64.58	1.4431	2	6.6
0	4	-8	65.18	1.4312	2	4.4
1	-5	-6	65.32	1.4285	2	1.6
0	6	4	66.07	1.4140	2	8.8
1	-5	6	66.63	1.4036	2	1.2
2	2	8	66.85	1.3995	2	4.0
3	-3	4	67.20	1.3930	2	10.6
3	-3	-5	67.39	1.3896	2	0.6
3	1	6	67.77	1.3827	2	0.9
1	-1	10	68.21	1.3748	2	0.4
1	-3	9	68.52	1.3693	2	0.2
2	2	-9	69.03	1.3605	2	0.0
0	6	5	69.17	1.3581	2	0.0
1	5	-7	69.69	1.3492	2	0.0
3	3	5	70.59	1.3342	2	0.4
3	3	-6	70.82	1.3305	2	7.4
2	6	0	70.90	1.3291	2	13.1
2	6	-1	71.03	1.3271	2	0.0
1	-5	7	71.17	1.3247	2	0.0
2	6	1	71.45	1.3203	2	0.4
2	6	-2	71.82	1.3143	2	9.0
4	0	-3	72.44	1.3047	2	1.9
2	6	2	72.66	1.3012	2	36.2
3	-1	-8	72.80	1.2991	2	0.6
4	0	2	72.86	1.2982	2	11.0
2	-6	-3	73.28	1.2917	2	0.2
2	-4	-8	73.72	1.2851	2	1.5
4	2	0	74.05	1.2802	2	1.7
3	-5	0	74.18	1.2783	2	1.8
0	2	11	74.24	1.2774	2	0.0
4	0	-4	74.34	1.2759	2	9.7
4	-2	-2	74.55	1.2729	2	1.4
1	7	-1	74.56	1.2728	2	0.0
1	5	-8	74.61	1.2720	2	0.5
1	7	1	74.76	1.2698	2	0.0
3	-5	1	74.82	1.2689	2	0.0
3	-3	-7	74.84	1.2687	2	0.1
4	0	3	74.93	1.2674	2	0.7
1	1	11	75.36	1.2612	2	0.0
2	-6	-4	75.39	1.2607	2	8.1
4	-2	-3	75.78	1.2552	2	0.1
1	7	2	75.85	1.2542	2	1.4
3	5	2	76.12	1.2505	2	1.5
3	-5	-3	76.22	1.2491	2	0.1
1	-5	8	76.25	1.2486	2	0.5
1	-7	-3	76.98	1.2386	2	0.0
2	6	4	77.03	1.2379	2	4.5
0	6	7	77.16	1.2362	2	0.0
1	-7	3	77.59	1.2304	2	0.0
4	2	-4	77.66	1.2295	2	1.3
3	5	3	78.06	1.2242	2	0.1
3	-1	-9	78.08	1.2239	2	0.0
3	-5	-4	78.20	1.2224	2	1.1
4	-2	3	78.24	1.2219	2	0.1
2	-4	-9	79.09	1.2108	2	0.0
1	-7	-4	79.16	1.2100	2	1.1
2	2	10	79.27	1.2085	2	2.8
1	-7	4	79.97	1.1997	2	0.9
1	-5	-9	80.05	1.1986	2	0.0
2	6	5	80.16	1.1973	2	0.2
3	-5	4	80.63	1.1915	2	0.9
3	-5	-5	80.81	1.1894	2	0.0
4	0	5	80.95	1.1876	2	0.0
0	2	12	81.73	1.1782	2	0.6
1	-3	11	81.93	1.1759	2	0.0
1	7	-5	81.96	1.1755	2	0.0
2	4	9	82.72	1.1666	2	0.0
1	-1	12	82.92	1.1643	2	0.3
2	0	11	82.98	1.1636	2	0.1
3	-1	9	83.53	1.1573	2	0.0
4	4	-1	83.82	1.1541	2	0.0
4	0	-7	83.84	1.1539	2	1.2
4	-4	0	83.90	1.1532	2	0.0
3	5	-6	84.04	1.1517	2	0.7
4	2	5	84.20	1.1499	2	0.1
3	-3	8	84.26	1.1491	2	3.5
0	8	-1	84.51	1.1465	2	0.0
3	-3	-9	84.60	1.1455	2	0.0
4	0	6	84.88	1.1423	2	6.6
2	-6	-7	85.45	1.1362	2	0.1
0	8	2	85.47	1.1360	2	0.2
4	-4	2	85.98	1.1306	2	0.3
2	2	11	86.21	1.1281	2	0.0
1	-7	6	86.58	1.1243	2	0.5
4	2	-7	87.07	1.1192	2	0.1
4	4	-4	87.41	1.1157	2	0.3
3	-5	6	87.64	1.1134	2	0.4
3	-5	-7	87.89	1.1109	2	0.0
1	-5	10	88.04	1.1093	2	0.2
4	-2	6	88.11	1.1087	2	0.7
2	-6	7	88.25	1.1073	2	0.1
0	8	-4	89.29	1.0970	2	0.5
1	3	12	89.38	1.0962	2	4.6
4	0	7	89.43	1.0957	2	0.7
4	4	-5	89.88	1.0914	2	0.0
3	3	9	89.98	1.0904	2	0.2
2	-6	-8	90.03	1.0899	2	15.4
4	4	4	90.60	1.0845	2	0.6
1	1	13	91.00	1.0808	2	0.0
4	-2	-8	91.44	1.0767	2	0.8
3	-5	7	92.07	1.0710	2	0.0
3	5	-8	92.37	1.0684	2	0.3
4	2	7	92.65	1.0659	2	0.0
2	-6	8	93.22	1.0608	2	1.0
5	1	-1	93.23	1.0607	2	0.0
5	-1	0	93.41	1.0592	2	0.8
5	1	-2	93.69	1.0568	2	0.6
3	-7	-1	93.71	1.0565	2	0.0
2	-2	12	93.74	1.0563	2	1.7
4	-4	5	93.87	1.0552	2	0.1
2	8	-1	93.90	1.0549	2	0.0
5	1	1	94.23	1.0521	2	0.1
2	8	1	94.30	1.0515	2	0.0
3	-7	-2	94.37	1.0509	2	0.7
2	-8	-2	94.66	1.0484	2	0.8
5	-1	-3	94.78	1.0474	2	0.1
0	0	14	95.11	1.0447	2	6.9
2	-8	2	95.46	1.0418	2	0.9
3	7	2	95.57	1.0409	2	0.8
3	-7	-3	95.67	1.0400	2	0.0
5	1	2	95.69	1.0399	2	0.7
2	-4	11	95.88	1.0383	2	0.0
2	8	-3	96.06	1.0369	2	0.0
4	-2	-9	96.47	1.0335	2	0.0
5	1	-4	96.52	1.0331	2	0.5
3	1	11	96.90	1.0301	2	0.0
3	5	8	97.17	1.0280	2	0.2
1	3	13	97.46	1.0257	2	0.0
3	7	3	97.48	1.0255	2	0.0
3	-7	-4	97.61	1.0245	2	0.5
4	4	6	97.79	1.0231	2	0.7
4	2	8	97.84	1.0227	2	0.6
2	8	-4	98.11	1.0206	2	0.8
2	-6	9	98.87	1.0148	2	0.0
5	-1	-5	98.91	1.0145	2	0.1
1	-7	-9	99.46	1.0104	2	0.0
2	-8	4	99.72	1.0084	2	0.7
1	1	14	99.74	1.0083	2	0.3
5	3	0	99.89	1.0071	2	4.3
4	6	-1	99.98	1.0065	2	0.1
3	7	4	100.03	1.0061	2	0.4