Folder: Serpentine-Database/Chrysotile/Chryso_2

Note: Chrysotile/Chryso_2/Chrysotile_C1m1_2.txt
*data for   ICSD # 77747 - File created with release 2021.2
Copyright   (C)2022 by FIZ Karlsruhe - Leibniz Institute for Information 
            Infrastructure. All rights reserved.
Coll Code   77747
Rec  Date   2003/04/01
Mod  Date   
Chem Name   Trimagnesium disilicate tetrahydroxide
Structured  Mg3 (Si2 O5) (O H)4
Sum         H4 Mg3 O9 Si2
ANX         A2B3X9
Min Name    Chrysotile
Min Group   Serpentine
Min Origin  Jeffrey mine, Quebec, Canada
D(calc)     1.31
Formula Wt  277.1250
Title       Quantitative determination of chrysotile asbestos in bulk materials 
            by combined Rietveld and RIR methods
Author(s)   Gualtieri, A.; Artioli, G.
Reference   Powder Diffraction
            (1995), 10, 269-272
DOI         10.1017/S0885715600014962
Unit Cell   5.258(3) 9.190(5) 14.630(8) 90. 94.11(5) 90.
Vol         705.12
Z           2
Space Group C 1 m 1
SG          C1M1
SG Number   8
Cryst Sys   monoclinic
Laue Class  2/m
Pearson     mS36
Wyckoff     b5 a4
R Value     .128
Symmetry      1            x, -y, z               
              2            x, y, z                
              3            x+1/2, -y+1/2, z       
              4            x+1/2, y+1/2, z        
Red Cell    C  5.257997 5.293927 14.630000 87.960265 85.889997 60.224262 352.56
Comments    z(O4) was misprinted as .275, structure of one out of two layers
            Cylindrically curved layers, given space group: C2/m
Atom  #   OX   SITE      x           y           z           SOF      H        ITF(U)
 Si   1  +4    4  b  0.5076(6)   0.1654(5)   0.039(1)       1.0        0         0.013(8)
 Mg   1  +2    2  a  0.6313(4)   0           0.2470(6)      1.0        0         0.134(4)
 Mg   2  +2    4  b  0.1553(5)   0.1713(4)   0.2060(9)      1.0        0         0.146(6)
 O    1  -2    2  a  0.5         0           0              1.0        0         0.545(4)
 O    2  -2    4  b  0.75        0.25        0              1.0        0         0.504(6)
 O    3  -2    4  b  0.4954(2)   0.1445(1)   0.1495(3)      1.0        0         0.498(9)
 O    4  -2    2  a  0.5169(4)   0.5         0.1750(1)      1.         H1        0.503(6)
 O    5  -2    2  a  0.7679(9)   0.5         0.2868(3)      1.         H1        0.564(2)
 O    6  -2    4  b  0.3501(9)   0.3235(7)   0.2835(8)      1.         H1        0.599(1)

Std. Notes  Transformation Method: Tidy
            TRANS  Origin  .50000 0 .00000
Std. Cell   5.258000 9.190000 14.630000 90.000000 94.110000 90.000000 
Std. Vol.   705.12
Std. Z      2
Std. SG     C1M1
Std. Pears. mS36
Std. Wyck   b5 a4
Atom  #   OX   SITE      x           y           z           SOF      H
 Si   1  +4.00 4  b  0.0076      0.1654      0.0390         1.0        0   
 Mg   1  +2.00 2  a  0.1313      0.0000      0.2470         1.0        0   
 Mg   2  +2.00 4  b  0.1553      0.3287      0.2060         1.0        0   
 O    1  -2.00 2  a  0.0000      0.0000      0.0000         1.0        0   
 O    2  -2.00 4  b  0.2500      0.2500      0.0000         1.0       

Note: README.md
# Serpentine-Database
XRD Serpentine Database for comparison with 4D-STEM data

File: powderpattern_table_2.csv
H	K	L	2THETA	D-VALUE	MULT	INTENSITY
0	0	1	6.06	14.5924	2	1000.0
0	2	0	19.32	4.5950	2	2.6
1	-1	-1	20.06	4.4272	2	2.4
0	2	-1	20.26	4.3828	2	3.0
1	1	-2	22.36	3.9766	2	1.6
0	2	-2	22.87	3.8882	2	2.5
0	0	4	24.40	3.6481	2	13.3
0	2	-3	26.69	3.3402	2	1.0
1	1	3	27.65	3.2261	2	1.8
0	0	5	30.63	2.9185	2	5.1
1	1	4	32.38	2.7647	2	0.7
1	-3	0	33.89	2.6452	2	0.2
1	3	-1	34.23	2.6194	2	0.6
1	-3	1	34.68	2.5864	2	2.0
1	-1	-5	35.48	2.5299	2	0.7
1	3	-2	35.68	2.5161	2	0.9
1	-3	2	36.55	2.4585	2	4.9
2	0	2	37.26	2.4133	2	0.4
2	0	-3	37.79	2.3806	2	4.7
0	4	0	39.21	2.2975	2	0.1
2	-2	0	39.57	2.2775	2	0.2
2	2	-1	39.67	2.2719	2	0.4
2	0	3	40.22	2.2420	2	0.1
2	-2	-2	40.76	2.2136	2	0.1
1	1	-6	40.96	2.2031	2	0.2
0	4	2	41.19	2.1914	2	0.3
0	2	-6	42.03	2.1495	2	0.5
2	2	2	42.30	2.1365	2	0.2
1	-3	4	42.95	2.1056	2	2.5
1	1	6	43.25	2.0920	2	0.1
0	4	3	43.57	2.0774	2	0.7
2	-2	3	44.99	2.0150	2	0.1
1	3	-5	45.44	1.9962	2	0.5
0	4	-4	46.72	1.9441	2	0.5
1	-1	-7	46.78	1.9418	2	0.0
0	2	-7	47.92	1.8984	2	0.3
2	2	4	48.41	1.8801	2	0.1
1	-1	7	49.18	1.8524	2	0.3
2	0	-6	49.24	1.8505	2	1.8
1	3	-6	50.02	1.8235	2	0.2
1	-3	6	51.99	1.7589	2	1.4
2	-2	5	52.48	1.7436	2	0.5
1	1	-8	52.89	1.7309	2	0.3
2	4	0	52.99	1.7281	2	0.3
2	-4	-1	53.07	1.7256	2	0.1
3	1	-1	53.27	1.7197	2	0.5
1	5	1	53.33	1.7177	2	0.1
2	-2	-6	53.37	1.7166	2	0.1
2	4	1	53.71	1.7067	2	0.3
3	-1	-2	53.98	1.6986	2	0.2
1	-5	-2	54.05	1.6966	2	0.1
2	0	-7	54.21	1.6919	2	1.7
1	5	2	54.68	1.6786	2	0.3
0	4	6	54.98	1.6701	2	0.1
2	-4	2	55.20	1.6640	2	0.1
1	1	8	55.41	1.6581	2	0.4
2	-4	-3	55.59	1.6532	2	0.3
1	-5	-3	55.85	1.6462	2	0.2
1	5	3	56.77	1.6217	2	0.4
2	-2	6	57.10	1.6130	2	0.5
1	3	7	57.25	1.6092	2	1.6
3	-1	-4	57.70	1.5978	2	0.1
2	4	-4	57.96	1.5910	2	0.2
3	-1	3	58.22	1.5847	2	0.2
1	-5	-4	58.36	1.5811	2	0.3
1	-1	-9	59.29	1.5584	2	0.4
2	0	-8	59.63	1.5504	2	0.8
2	-4	4	60.34	1.5339	2	0.1
0	2	-9	60.56	1.5290	2	0.0
3	-1	-5	60.60	1.5279	2	0.2
0	6	-1	60.81	1.5233	2	1.4
3	3	-1	60.95	1.5199	2	1.0
3	-3	0	61.03	1.5183	2	1.7
3	-1	4	61.25	1.5133	2	0.1
3	-3	-2	61.61	1.5053	2	0.3
3	3	1	61.83	1.5006	2	1.5
1	-1	9	61.93	1.4983	2	0.3
2	-2	7	62.21	1.4922	2	0.2
1	-5	5	62.98	1.4758	2	0.0
3	3	-3	62.99	1.4757	2	0.1
3	-3	2	63.34	1.4684	2	0.7
0	6	-3	63.70	1.4609	2	0.1
2	4	5	63.89	1.4571	2	0.1
2	0	8	64.26	1.4495	2	0.3
3	1	5	64.91	1.4366	2	0.0
3	3	-4	65.05	1.4338	2	0.2
1	-5	-6	65.33	1.4283	2	0.1
3	-3	3	65.53	1.4244	2	0.1
0	6	4	66.17	1.4122	2	0.2
1	-5	6	67.00	1.3966	2	0.0
3	-3	-5	67.77	1.3826	2	0.2
2	-2	8	67.79	1.3823	2	0.0
3	1	-7	68.27	1.3738	2	0.0
3	3	4	68.38	1.3718	2	0.1
2	4	-7	68.92	1.3624	2	0.3
2	-2	-9	68.97	1.3615	2	0.3
3	1	6	69.15	1.3585	2	0.1
0	6	5	69.28	1.3562	2	0.3
2	0	9	70.43	1.3369	2	0.7
3	3	-6	71.12	1.3255	2	0.1
2	6	0	71.31	1.3226	2	0.3
2	-6	-1	71.37	1.3215	2	0.8
4	0	-1	71.83	1.3143	2	0.3
2	6	1	71.91	1.3129	2	0.1
2	-6	-2	72.12	1.3097	2	0.9
2	4	7	72.70	1.3006	2	0.0
3	-1	-8	72.95	1.2968	2	0.0
0	6	-6	73.00	1.2961	2	0.2
4	0	-3	73.44	1.2894	2	0.3
2	4	-8	73.72	1.2852	2	0.2
2	-2	9	73.82	1.2836	2	0.1
4	0	2	74.43	1.2746	2	0.8
1	-7	0	74.50	1.2736	2	0.1
1	-7	-1	74.70	1.2707	2	0.1
3	5	-1	74.91	1.2676	2	0.1
3	5	0	74.97	1.2667	2	0.1
3	-3	-7	75.07	1.2654	2	0.1
4	2	-1	75.19	1.2636	2	0.0
4	-2	0	75.39	1.2608	2	0.0
3	-5	-2	75.51	1.2591	2	0.0
1	-7	-2	75.56	1.2583	2	0.0
2	-6	-4	75.58	1.2580	2	0.0
3	5	1	75.70	1.2564	2	0.0
3	-3	6	75.91	1.2534	2	0.2
1	7	2	76.09	1.2509	2	0.0
4	-2	1	76.24	1.2488	2	0.1
1	-5	8	76.71	1.2423	2	0.1
4	2	-3	76.78	1.2414	2	0.1
1	7	-3	77.08	1.2373	2	0.0
3	-5	2	77.08	1.2373	2	0.0
0	4	10	77.49	1.2318	2	0.1
2	6	4	77.68	1.2292	2	0.3
1	-7	3	77.86	1.2268	2	0.0
2	-4	8	77.93	1.2259	2	0.0
2	6	-5	78.27	1.2214	2	0.2
4	2	-4	78.54	1.2178	2	0.1
0	0	12	78.68	1.2160	2	0.1
3	-5	3	79.11	1.2106	2	0.1
1	7	-4	79.23	1.2090	2	0.0
4	0	4	79.42	1.2066	2	0.1
4	2	3	79.90	1.2005	2	0.1
1	-5	-9	80.05	1.1987	2	0.2
2	2	10	80.32	1.1953	2	0.2
3	-3	7	80.55	1.1925	2	0.2
2	-6	5	80.87	1.1886	2	0.2
3	5	-5	81.19	1.1847	2	0.1
2	-6	-6	81.59	1.1799	2	0.5
0	2	12	81.96	1.1756	2	0.1
0	6	-8	82.18	1.1730	2	0.1
1	5	9	82.37	1.1707	2	0.1
4	2	4	82.68	1.1671	2	0.0
1	-7	5	83.31	1.1599	2	0.0
1	-1	12	83.56	1.1571	2	0.0
4	-2	-6	83.99	1.1522	2	0.0
0	4	11	84.29	1.1488	2	0.2
3	5	-6	84.35	1.1482	2	0.1
0	8	-1	84.62	1.1452	2	0.0
3	3	-9	84.70	1.1444	2	0.1
4	4	-1	85.02	1.1408	2	0.0
3	1	9	85.14	1.1396	2	0.0
4	4	0	85.22	1.1387	2	0.0
4	-4	-2	85.48	1.1359	2	0.0
2	6	-7	85.52	1.1355	2	0.4
3	-3	8	85.77	1.1328	2	0.1
4	4	1	86.05	1.1298	2	0.0
4	-4	-3	86.57	1.1244	2	0.0
4	0	6	86.89	1.1210	2	0.3
0	8	3	87.19	1.1180	2	0.0
2	-2	11	87.34	1.1165	2	0.2
0	6	-9	87.64	1.1134	2	0.1
4	-2	-7	87.64	1.1133	2	0.0
4	-4	-4	88.30	1.1068	2	0.0
1	5	10	88.60	1.1038	2	0.0
3	5	6	88.96	1.1003	2	0.0
0	8	4	89.43	1.0957	2	0.0
1	-7	-7	89.47	1.0953	2	0.0
0	2	13	89.98	1.0904	2	0.1
2	4	10	90.04	1.0898	2	0.1
2	-6	-8	90.06	1.0896	2	0.1
4	-4	-5	90.67	1.0839	2	0.0
1	7	7	91.25	1.0785	2	0.0
3	3	9	91.59	1.0754	2	0.1
0	4	12	91.66	1.0748	2	0.2
2	0	12	91.72	1.0742	2	0.0
0	8	-5	92.31	1.0689	2	0.0
4	4	4	92.38	1.0683	2	0.0
3	5	7	93.50	1.0584	2	0.1
4	-4	-6	93.68	1.0569	2	0.1
1	7	-8	94.14	1.0529	2	0.0
2	6	8	94.15	1.0528	2	0.2
2	-8	-1	94.28	1.0517	2	0.0
3	7	-1	94.44	1.0503	2	0.1
4	2	7	94.79	1.0473	2	0.0
2	8	1	94.79	1.0473	2	0.0
2	-8	-2	94.99	1.0457	2	0.1
3	7	-2	95.02	1.0454	2	0.1
3	-7	1	95.21	1.0439	2	0.0
2	-6	-9	95.25	1.0435	2	0.0
5	-1	0	95.42	1.0421	2	0.0
1	-5	11	95.45	1.0419	2	0.0
4	4	5	95.78	1.0392	2	0.0
2	-8	2	96.01	1.0372	2	0.0
1	7	8	96.19	1.0358	2	0.1
2	-8	-3	96.34	1.0346	2	0.1
5	1	1	96.38	1.0343	2	0.1
3	-7	2	96.56	1.0328	2	0.1
4	2	-9	96.87	1.0303	2	0.1
2	4	11	97.03	1.0291	2	0.1
3	-5	-9	97.63	1.0243	2	0.0
2	8	3	97.88	1.0224	2	0.0
5	-1	-4	98.00	1.0214	2	0.0
3	-3	10	98.08	1.0208	2	0.0
1	3	13	98.17	1.0201	2	0.0
2	8	-4	98.34	1.0188	2	0.1
0	2	14	98.65	1.0165	2	0.0
3	-1	11	98.73	1.0158	2	0.0
1	-7	-9	99.49	1.0101	2	0.1
4	4	6	99.84	1.0075	2	0.0
2	0	13	100.02	1.0062	2	0.0
0	8	7	100.03	1.0061	2	0.1