Folder: Serpentine-Database/Lizardite/Lizardite_1

Note: README.md
# Serpentine-Database
XRD Serpentine Database for comparison with 4D-STEM data

File: powderpattern_table_1.csv
H	K	L	2THETA	D-VALUE	MULT	INTENSITY
0	0	1	12.20	7.2539	2	1000.0
1	0	0	19.24	4.6131	2	153.7
0	1	-1	22.85	3.8926	2	39.6
1	-1	1	22.85	3.8926	2	167.1
0	1	1	22.85	3.8926	2	39.6
0	0	2	24.54	3.6269	2	602.6
1	-1	-2	31.37	2.8512	2	4.7
1	0	-2	31.37	2.8512	2	4.7
1	0	2	31.37	2.8512	2	93.8
1	-2	0	33.65	2.6634	2	30.7
1	1	-1	35.92	2.5002	2	361.5
2	-1	-1	35.92	2.5002	2	114.7
1	-2	1	35.92	2.5002	2	114.8
0	0	3	37.18	2.4180	2	84.2
0	2	0	39.05	2.3065	2	0.4
2	-2	-1	41.06	2.1981	2	5.2
2	0	-1	41.06	2.1981	2	5.2
0	2	1	41.06	2.1981	2	34.1
1	-2	2	42.09	2.1467	2	20.3
2	-1	-2	42.09	2.1467	2	20.3
1	1	2	42.09	2.1467	2	20.3
1	0	-3	42.20	2.1416	2	34.8
0	1	-3	42.20	2.1416	2	24.2
1	0	3	42.20	2.1416	2	1.5
0	2	-2	46.67	1.9463	2	1.3
2	-2	-2	46.67	1.9463	2	27.8
0	2	2	46.67	1.9463	2	1.3
0	0	4	50.31	1.8135	2	31.1
2	-1	-3	51.01	1.7902	2	6.4
1	1	-3	51.01	1.7902	2	97.0
1	-2	-3	51.01	1.7902	2	97.0
2	-3	0	52.48	1.7436	2	7.0
3	-1	0	52.48	1.7436	2	24.9
1	2	0	52.48	1.7436	2	7.1
2	-3	1	54.10	1.6953	2	20.6
3	-2	-1	54.10	1.6953	2	2.5
1	2	1	54.10	1.6953	2	10.8
3	-1	-1	54.10	1.6953	2	2.5
1	-3	1	54.10	1.6953	2	10.8
1	-3	-1	54.10	1.6953	2	20.6
0	1	-4	54.36	1.6877	2	1.0
1	-1	-4	54.36	1.6877	2	6.2
1	0	4	54.36	1.6877	2	12.3
0	2	-3	55.02	1.6690	2	27.1
2	-2	3	55.02	1.6690	2	7.4
0	2	3	55.02	1.6690	2	27.1
1	-3	2	58.76	1.5714	2	12.0
1	-3	-2	58.76	1.5714	2	0.4
2	-3	2	58.76	1.5714	2	0.4
1	2	-2	58.76	1.5714	2	0.4
3	-1	-2	58.76	1.5714	2	10.3
1	2	2	58.76	1.5714	2	12.0
0	3	0	60.18	1.5377	2	110.3
3	-3	-1	61.66	1.5043	2	20.6
0	3	-1	61.66	1.5043	2	20.6
0	3	1	61.66	1.5043	2	20.6
1	1	-4	61.90	1.4990	2	32.4
2	-1	-4	61.90	1.4990	2	70.5
2	-1	4	61.90	1.4990	2	32.3
0	0	5	64.20	1.4508	2	15.3
2	-2	-4	65.47	1.4256	2	10.5
2	0	-4	65.47	1.4256	2	10.5
0	2	4	65.47	1.4256	2	3.7
3	-3	2	65.99	1.4157	2	7.6
3	-3	-2	65.99	1.4157	2	7.6
0	3	2	65.99	1.4157	2	7.6
3	-2	-3	66.06	1.4142	2	5.4
1	-3	3	66.06	1.4142	2	0.2
1	2	-3	66.06	1.4142	2	7.0
1	2	3	66.06	1.4142	2	0.2
2	-3	-3	66.06	1.4142	2	0.2
3	-1	3	66.06	1.4142	2	5.4
1	0	5	67.70	1.3840	2	2.1
1	0	-5	67.70	1.3840	2	0.6
1	-1	-5	67.70	1.3840	2	0.6
2	-4	0	70.75	1.3317	2	14.1
4	-2	-1	72.11	1.3098	2	52.5
4	-2	1	72.11	1.3098	2	16.6
2	2	-1	72.11	1.3098	2	16.6
3	0	-3	72.90	1.2975	2	3.2
3	-3	-3	72.90	1.2975	2	3.2
0	3	3	72.90	1.2975	2	3.2
4	-3	0	74.10	1.2794	2	2.0
4	-1	0	74.10	1.2794	2	2.0
3	1	0	74.10	1.2794	2	7.2
1	-2	5	74.47	1.2740	2	39.6
1	1	-5	74.47	1.2740	2	8.8
2	-1	5	74.47	1.2740	2	8.8
4	-3	-1	75.44	1.2600	2	6.3
3	-4	-1	75.44	1.2600	2	0.8
3	1	1	75.44	1.2600	2	0.8
4	-1	-1	75.44	1.2600	2	6.3
1	-4	-1	75.44	1.2600	2	6.3
1	3	1	75.44	1.2600	2	3.1
3	-1	-4	75.66	1.2569	2	0.2
2	1	-4	75.66	1.2569	2	3.8
2	-3	-4	75.66	1.2569	2	3.8
1	2	-4	75.66	1.2569	2	2.2
3	-1	4	75.66	1.2569	2	0.2
1	2	4	75.66	1.2569	2	3.8
4	-2	-2	76.15	1.2501	2	3.0
4	-2	2	76.15	1.2501	2	10.0
2	-4	-2	76.15	1.2501	2	10.0
0	2	-5	77.77	1.2281	2	8.9
2	-2	5	77.77	1.2281	2	1.8
2	0	5	77.77	1.2281	2	1.8
0	0	6	79.23	1.2090	2	15.3
4	-1	-2	79.42	1.2066	2	0.1
1	-4	2	79.42	1.2066	2	4.2
3	-4	2	79.42	1.2066	2	3.4
3	1	-2	79.42	1.2066	2	3.4
1	3	-2	79.42	1.2066	2	0.1
4	-1	2	79.42	1.2066	2	4.2
0	3	-4	82.19	1.1728	2	5.0
3	-3	-4	82.19	1.1728	2	5.0
3	0	4	82.19	1.1728	2	5.0
1	0	-6	82.47	1.1695	2	2.1
0	1	-6	82.47	1.1695	2	1.1
1	-1	-6	82.47	1.1695	2	2.1
2	-4	3	82.73	1.1665	2	28.4
2	-4	-3	82.73	1.1665	2	0.5
4	-2	-3	82.73	1.1665	2	28.4
4	0	0	83.90	1.1533	2	1.0
4	-4	1	85.20	1.1390	2	0.2
4	0	-1	85.20	1.1390	2	1.2
4	0	1	85.20	1.1390	2	0.2
3	-4	3	85.95	1.1309	2	2.3
4	-1	-3	85.95	1.1309	2	2.8
1	-4	3	85.95	1.1309	2	0.0
3	1	-3	85.95	1.1309	2	2.3
4	-1	3	85.95	1.1309	2	0.0
1	3	3	85.95	1.1309	2	0.0
3	-2	-5	87.46	1.1152	2	2.0
1	-3	5	87.46	1.1152	2	1.0
2	1	-5	87.46	1.1152	2	1.0
2	-3	-5	87.46	1.1152	2	1.0
2	1	5	87.46	1.1152	2	0.2
1	2	5	87.46	1.1152	2	1.0
1	-2	6	88.90	1.1009	2	1.3
1	1	6	88.90	1.1009	2	1.3
2	-1	6	88.90	1.1009	2	4.9
4	-4	-2	89.08	1.0990	2	1.7
0	4	-2	89.08	1.0990	2	0.2
4	0	2	89.08	1.0990	2	2.8
4	-2	-4	91.81	1.0734	2	3.7
2	-4	4	91.81	1.0734	2	3.7
2	2	4	91.81	1.0734	2	3.7
0	2	-6	92.10	1.0708	2	3.6
2	-2	6	92.10	1.0708	2	6.4
2	0	6	92.10	1.0708	2	6.4
5	-2	0	93.51	1.0583	2	1.0
2	-5	0	93.51	1.0583	2	1.0
2	3	0	93.51	1.0583	2	1.0
3	-3	5	93.86	1.0552	2	9.3
0	3	-5	93.86	1.0552	2	9.3
3	0	5	93.86	1.0552	2	9.3
3	-5	-1	94.81	1.0472	2	0.4
5	-3	-1	94.81	1.0472	2	1.6
3	-5	1	94.81	1.0472	2	0.4
5	-3	1	94.81	1.0472	2	3.2
2	3	1	94.81	1.0472	2	3.2
2	3	-1	94.81	1.0472	2	1.6
3	-4	4	95.02	1.0454	2	0.1
1	-4	4	95.02	1.0454	2	1.9
1	3	-4	95.02	1.0454	2	1.2
3	-4	-4	95.02	1.0454	2	0.1
1	-4	-4	95.02	1.0454	2	1.2
1	3	4	95.02	1.0454	2	1.9
4	0	-3	95.56	1.0409	2	1.1
0	4	-3	95.56	1.0409	2	3.9
0	4	3	95.56	1.0409	2	3.9
0	0	7	96.13	1.0363	2	5.4
3	-5	2	98.72	1.0159	2	1.9
3	-5	-2	98.72	1.0159	2	1.9
3	2	-2	98.72	1.0159	2	1.9
5	-2	2	98.72	1.0159	2	0.1
5	-3	-2	98.72	1.0159	2	2.4
2	3	-2	98.72	1.0159	2	2.4
0	1	-7	99.36	1.0111	2	0.2
1	-1	-7	99.36	1.0111	2	0.8
0	1	7	99.36	1.0111	2	0.2
4	-5	0	99.96	1.0067	2	1.1
5	-1	0	99.96	1.0067	2	1.1
4	1	0	99.96	1.0067	2	1.1